 first_second    radius    angle_t1    angle_t2    angle_p1    angle_p2    correct_direction    Response    C_I_M    start_trial    presentation_checkboard_time    presentation_target_time    start_delay    end_delay    presentation_probe_time    response_time  
 40.791    40.791    40.791    40.791    40.791    40.791    40.791    40.791    40.791    40.791    40.791    40.791    40.791    40.791    40.791    40.791  
 1.0    14.0    119.0    140.0    128.0    132.0    -1.0    -1.0    0.0    43.647    43.647    44.12    44.446    47.617    47.617    48.318  
 2.0    14.0    119.0    140.0    128.0    132.0    1.0    1.0    0.0    43.647    43.647    49.969    50.45    53.471    53.471    54.487  
 1.0    14.0    329.0    329.0    338.0    331.0    1.0    1.0    0.0    59.052    59.052    59.557    60.04    63.06    63.06    64.044  
 2.0    14.0    329.0    329.0    338.0    331.0    1.0    -1.0    1.0    59.052    59.052    66.145    66.612    69.648    69.648    71.184  
 1.0    14.0    128.0    130.0    132.0    120.0    -1.0    -1.0    0.0    74.356    74.356    74.821    75.318    78.323    78.323    79.725  
 2.0    14.0    128.0    130.0    132.0    120.0    1.0    1.0    0.0    74.356    74.356    81.826    82.157    85.328    85.328    86.076  
 1.0    14.0    112.0    118.0    119.0    121.0    -1.0    -1.0    0.0    90.078    90.078    90.298    90.63    93.801    93.801    94.6  
 2.0    14.0    112.0    118.0    119.0    121.0    -1.0    -1.0    0.0    90.078    90.078    95.516    96.0    99.019    99.019    100.105  
 1.0    14.0    73.0    53.0    75.0    46.0    1.0    -1.0    1.0    105.489    105.489    105.991    106.474    109.493    109.493    110.694  
 2.0    14.0    73.0    53.0    75.0    46.0    -1.0    -1.0    0.0    105.489    105.489    112.481    112.812    115.983    115.983    117.151  
 1.0    14.0    50.0    11.0    57.0    10.0    1.0    1.0    0.0    120.74    120.74    121.221    121.702    124.707    124.707    125.722  
 2.0    14.0    50.0    11.0    57.0    10.0    -1.0    1.0    1.0    120.74    120.74    126.623    127.106    130.125    130.125    131.326  
 1.0    14.0    28.0    68.0    33.0    70.0    1.0    1.0    0.0    135.871    135.871    136.332    136.663    139.834    139.834    140.768  
 2.0    14.0    28.0    68.0    33.0    70.0    1.0    -1.0    1.0    135.871    135.871    141.469    141.953    144.971    144.971    146.606  
 1.0    14.0    70.0    30.0    79.0    20.0    1.0    1.0    0.0    151.658    151.658    151.893    152.224    155.395    155.395    157.03  
 2.0    14.0    70.0    30.0    79.0    20.0    -1.0    -1.0    0.0    151.658    151.658    157.73    158.062    161.233    161.233    162.634  
 1.0    14.0    36.0    19.0    33.0    26.0    -1.0    1.0    1.0    166.844    166.844    167.071    167.402    170.573    170.573    171.741  
 2.0    14.0    36.0    19.0    33.0    26.0    1.0    1.0    0.0    166.844    166.844    172.441    172.773    175.945    175.945    176.878  
 1.0    14.0    73.0    45.0    81.0    37.0    1.0    1.0    0.0    182.53    182.53    182.982    183.314    186.485    186.485    187.419  
 2.0    14.0    73.0    45.0    81.0    37.0    -1.0    -1.0    0.0    182.53    182.53    189.818    190.302    193.321    193.321    194.722  
 1.0    14.0    164.0    148.0    166.0    139.0    -1.0    1.0    1.0    197.99    197.99    198.46    198.942    201.963    201.963    203.445  
 2.0    14.0    164.0    148.0    166.0    139.0    1.0    1.0    0.0    197.99    197.99    205.216    205.546    208.717    208.717    209.418  
 1.0    14.0    105.0    114.0    114.0    121.0    -1.0    -1.0    0.0    213.201    213.201    213.421    213.753    216.923    216.923    217.923  
 2.0    14.0    105.0    114.0    114.0    121.0    -1.0    -1.0    0.0    213.201    213.201    219.025    219.356    222.528    222.528    223.509  
 1.0    14.0    50.0    36.0    45.0    45.0    -1.0    -1.0    0.0    229.103    229.103    229.332    229.664    232.836    232.836    233.834  
 2.0    14.0    50.0    36.0    45.0    45.0    1.0    1.0    0.0    229.103    229.103    234.469    234.801    237.972    237.972    238.906  
 1.0    14.0    245.0    215.0    253.0    217.0    -1.0    -1.0    0.0    244.863    244.863    245.375    245.859    248.877    248.877    249.998  
 2.0    14.0    245.0    215.0    253.0    217.0    -1.0    -1.0    0.0    244.863    244.863    251.013    251.496    254.498    254.498    256.086  
 1.0    14.0    255.0    226.0    245.0    228.0    1.0    1.0    0.0    260.066    260.066    260.289    260.621    263.791    263.791    264.773  
 2.0    14.0    255.0    226.0    245.0    228.0    -1.0    -1.0    0.0    260.066    260.066    265.892    266.224    269.396    269.396    270.562  
 1.0    14.0    217.0    199.0    213.0    198.0    1.0    1.0    0.0    275.609    275.609    276.067    276.55    279.57    279.57    280.568  
 2.0    14.0    217.0    199.0    213.0    198.0    1.0    1.0    0.0    275.609    275.609    283.073    283.403    286.575    286.575    287.558  
 1.0    14.0    228.0    236.0    220.0    229.0    1.0    1.0    0.0    291.244    291.244    291.485    291.96    294.987    294.987    296.421  
 2.0    14.0    228.0    236.0    220.0    229.0    1.0    1.0    0.0    291.244    291.244    297.614    298.098    301.107    301.107    302.276  
 1.0    14.0    337.0    325.0    340.0    328.0    1.0    1.0    0.0    306.718    306.718    306.962    307.289    310.48    310.48    311.883  
 2.0    14.0    337.0    325.0    340.0    328.0    1.0    1.0    0.0    306.718    306.718    311.975    312.442    315.478    315.478    316.896  
 1.0    14.0    73.0    61.0    64.0    56.0    -1.0    -1.0    0.0    322.416    322.416    322.674    322.998    326.177    326.177    327.403  
 2.0    14.0    73.0    61.0    64.0    56.0    -1.0    -1.0    0.0    322.416    322.416    328.554    329.038    332.056    332.056    333.198  
 1.0    14.0    10.0    38.0    4.0    41.0    -1.0    0.0    999.0    338.054    338.054    338.286    338.61    341.796    341.796    0.0  
 2.0    14.0    10.0    38.0    4.0    41.0    1.0    0.0    999.0    338.054    338.054    344.844    345.182    348.352    348.352    0.0  
