 first_second    radius    angle_t1    angle_t2    angle_p1    angle_p2    correct_direction    Response    C_I_M    start_trial    presentation_checkboard_time    presentation_target_time    start_delay    end_delay    presentation_probe_time    response_time  
 43.977    43.977    43.977    43.977    43.977    43.977    43.977    43.977    43.977    43.977    43.977    43.977    43.977    43.977    43.977    43.977  
 1.0    14.0    119.0    140.0    128.0    132.0    -1.0    1.0    1.0    46.013    46.013    46.234    46.717    49.735    49.735    51.37  
 2.0    14.0    119.0    140.0    128.0    132.0    1.0    -1.0    1.0    46.013    46.013    51.853    52.335    55.34    55.34    56.974  
 1.0    14.0    329.0    329.0    338.0    331.0    1.0    -1.0    1.0    61.554    61.554    61.808    62.292    65.311    65.311    66.914  
 2.0    14.0    329.0    329.0    338.0    331.0    1.0    1.0    0.0    61.554    61.554    68.163    68.647    71.665    71.665    73.002  
 1.0    14.0    128.0    130.0    132.0    120.0    -1.0    1.0    1.0    77.218    77.218    77.673    78.156    81.175    81.175    82.373  
 2.0    14.0    128.0    130.0    132.0    120.0    1.0    -1.0    1.0    77.218    77.218    84.21    84.542    87.713    87.713    88.88  
 1.0    14.0    112.0    118.0    119.0    121.0    -1.0    -1.0    0.0    92.539    92.539    92.767    93.251    96.269    96.269    97.904  
 2.0    14.0    112.0    118.0    119.0    121.0    -1.0    -1.0    0.0    92.539    92.539    98.37    98.838    101.873    101.873    103.121  
 1.0    14.0    73.0    53.0    75.0    46.0    1.0    -1.0    1.0    108.186    108.186    108.645    108.976    112.148    112.148    113.315  
 2.0    14.0    73.0    53.0    75.0    46.0    -1.0    1.0    1.0    108.186    108.186    113.782    114.113    117.284    117.284    118.452  
 1.0    14.0    50.0    11.0    57.0    10.0    1.0    -1.0    1.0    123.693    123.693    123.922    124.254    127.425    127.425    128.207  
 2.0    14.0    50.0    11.0    57.0    10.0    -1.0    1.0    1.0    123.693    123.693    129.06    129.527    132.563    132.563    133.361  
 1.0    14.0    28.0    68.0    33.0    70.0    1.0    -1.0    1.0    139.463    139.463    139.934    140.415    143.419    143.42    144.685  
 2.0    14.0    28.0    68.0    33.0    70.0    1.0    -1.0    1.0    139.463    139.463    145.755    146.222    149.257    149.257    150.191  
 1.0    14.0    70.0    30.0    79.0    20.0    1.0    -1.0    1.0    155.035    155.035    155.495    155.826    158.998    158.998    159.762  
 2.0    14.0    70.0    30.0    79.0    20.0    -1.0    -1.0    0.0    155.035    155.035    160.865    161.197    164.369    164.369    165.303  
 1.0    14.0    36.0    19.0    33.0    26.0    -1.0    -1.0    0.0    170.283    170.283    170.604    171.071    174.09    174.09    175.007  
 2.0    14.0    36.0    19.0    33.0    26.0    1.0    -1.0    1.0    170.283    170.283    177.542    178.026    181.045    181.045    181.948  
 1.0    14.0    73.0    45.0    81.0    37.0    1.0    -1.0    1.0    185.905    185.905    186.368    186.699    189.87    189.87    192.036  
 2.0    14.0    73.0    45.0    81.0    37.0    -1.0    0.0    999.0    185.905    185.905    193.139    193.471    196.642    196.642    0.0  
 1.0    14.0    164.0    148.0    166.0    139.0    -1.0    -1.0    0.0    201.074    201.074    201.529    201.86    205.031    205.031    206.683  
 2.0    14.0    164.0    148.0    166.0    139.0    1.0    -1.0    1.0    201.074    201.074    208.365    208.848    211.867    211.867    212.801  
 1.0    14.0    105.0    114.0    114.0    121.0    -1.0    1.0    1.0    216.666    216.666    217.123    217.454    220.626    220.626    221.56  
 2.0    14.0    105.0    114.0    114.0    121.0    -1.0    -1.0    0.0    216.666    216.666    223.429    223.761    226.931    226.931    228.097  
 1.0    14.0    50.0    36.0    45.0    45.0    -1.0    -1.0    0.0    232.381    232.381    232.682    233.166    236.186    236.186    237.271  
 2.0    14.0    50.0    36.0    45.0    45.0    1.0    -1.0    1.0    232.381    232.381    238.672    239.003    242.175    242.175    243.676  
 1.0    14.0    245.0    215.0    253.0    217.0    -1.0    1.0    1.0    248.311    248.311    248.61    249.095    252.096    252.096    253.45  
 2.0    14.0    245.0    215.0    253.0    217.0    -1.0    -1.0    0.0    248.311    248.311    254.619    255.084    258.12    258.12    259.288  
 1.0    14.0    255.0    226.0    245.0    228.0    1.0    -1.0    1.0    263.977    263.977    264.441    264.773    267.943    267.943    268.925  
 2.0    14.0    255.0    226.0    245.0    228.0    -1.0    1.0    1.0    263.977    263.977    270.746    271.078    274.248    274.248    275.447  
 1.0    14.0    217.0    199.0    213.0    198.0    1.0    -1.0    1.0    279.147    279.147    279.417    279.901    282.92    282.92    284.272  
 2.0    14.0    217.0    199.0    213.0    198.0    1.0    -1.0    1.0    279.147    279.147    285.989    286.471    289.49    289.49    290.577  
 1.0    14.0    228.0    236.0    220.0    229.0    1.0    -1.0    1.0    294.429    294.429    294.896    295.363    298.4    298.4    299.36  
 2.0    14.0    228.0    236.0    220.0    229.0    1.0    1.0    0.0    294.429    294.429    300.984    301.316    304.487    304.487    305.421  
 1.0    14.0    337.0    325.0    340.0    328.0    1.0    -1.0    1.0    310.427    310.427    310.684    311.008    314.184    314.184    315.353  
 2.0    14.0    337.0    325.0    340.0    328.0    1.0    1.0    0.0    310.427    310.427    317.546    318.013    321.049    321.049    322.609  
 1.0    14.0    73.0    61.0    64.0    56.0    -1.0    -1.0    0.0    326.544    326.544    327.011    327.489    330.531    330.531    331.697  
 2.0    14.0    73.0    61.0    64.0    56.0    -1.0    1.0    1.0    326.544    326.544    332.721    333.189    336.224    336.224    337.317  
 1.0    14.0    10.0    38.0    4.0    41.0    -1.0    0.0    999.0    342.168    342.168    342.406    342.74    345.907    345.907    0.0  
 2.0    14.0    10.0    38.0    4.0    41.0    1.0    0.0    999.0    342.168    342.168    347.816    348.299    351.319    351.319    0.0  
