 first_second    radius    angle_t1    angle_t2    angle_p1    angle_p2    correct_direction    Response    C_I_M    start_trial    presentation_checkboard_time    presentation_target_time    start_delay    end_delay    presentation_probe_time    response_time  
 48.513    48.513    48.513    48.513    48.513    48.513    48.513    48.513    48.513    48.513    48.513    48.513    48.513    48.513    48.513    48.513  
 1.0    15.0    153.0    110.0    161.0    120.0    -1.0    -1.0    0.0    50.65    50.65    50.894    51.223    54.397    54.397    55.831  
 2.0    15.0    153.0    110.0    161.0    120.0    -1.0    -1.0    0.0    50.65    50.65    56.267    56.599    59.773    59.773    61.193  
 1.0    15.0    17.0    58.0    22.0    52.0    1.0    1.0    0.0    66.295    66.295    66.752    67.085    70.259    70.259    71.493  
 2.0    15.0    17.0    58.0    22.0    52.0    -1.0    -1.0    0.0    66.295    66.295    71.912    72.395    75.402    75.402    77.304  
 1.0    15.0    312.0    296.0    313.0    294.0    1.0    1.0    0.0    81.952    81.952    82.415    82.747    85.921    85.921    87.09  
 2.0    15.0    312.0    296.0    313.0    294.0    -1.0    1.0    1.0    81.952    81.952    89.194    89.527    92.701    92.701    94.185  
 1.0    15.0    339.0    318.0    336.0    313.0    -1.0    -1.0    0.0    97.225    97.225    97.459    97.792    100.966    100.966    102.134  
 2.0    15.0    339.0    318.0    336.0    313.0    -1.0    -1.0    0.0    97.225    97.225    103.537    103.87    107.044    107.044    108.212  
 1.0    15.0    18.0    47.0    27.0    55.0    1.0    1.0    0.0    113.033    113.033    113.505    113.973    117.012    117.012    118.213  
 2.0    15.0    18.0    47.0    27.0    55.0    1.0    1.0    0.0    113.033    113.033    118.882    119.215    122.389    122.389    123.557  
 1.0    15.0    106.0    159.0    104.0    165.0    1.0    1.0    0.0    128.856    128.856    129.318    129.786    132.824    132.824    133.993  
 2.0    15.0    106.0    159.0    104.0    165.0    -1.0    -1.0    0.0    128.856    128.856    136.331    136.664    139.837    139.837    141.055  
 1.0    15.0    112.0    148.0    116.0    153.0    -1.0    0.0    999.0    144.149    144.149    144.379    144.846    147.885    147.885    0.0  
 2.0    15.0    112.0    148.0    116.0    153.0    -1.0    -1.0    0.0    144.149    144.149    149.755    150.088    153.127    153.127    154.213  
 1.0    15.0    125.0    169.0    117.0    171.0    1.0    1.0    0.0    159.702    159.702    160.191    160.674    163.681    163.681    164.682  
 2.0    15.0    125.0    169.0    117.0    171.0    -1.0    -1.0    0.0    159.702    159.702    165.317    165.785    168.824    168.824    169.776  
 1.0    15.0    245.0    203.0    247.0    211.0    -1.0    1.0    1.0    175.275    175.275    175.602    176.069    179.108    179.108    180.412  
 2.0    15.0    245.0    203.0    247.0    211.0    -1.0    -1.0    0.0    175.275    175.275    181.347    181.679    184.853    184.853    186.022  
 1.0    15.0    106.0    105.0    114.0    101.0    -1.0    1.0    1.0    190.677    190.677    190.914    191.247    194.421    194.421    195.606  
 2.0    15.0    106.0    105.0    114.0    101.0    1.0    1.0    0.0    190.677    190.677    196.34    196.824    199.846    199.846    200.966  
 1.0    15.0    214.0    197.0    212.0    205.0    1.0    -1.0    1.0    205.888    205.888    206.126    206.61    209.633    209.633    211.269  
 2.0    15.0    214.0    197.0    212.0    205.0    -1.0    -1.0    0.0    205.888    205.888    212.204    212.536    215.71    215.71    216.879  
 1.0    15.0    63.0    48.0    56.0    58.0    -1.0    -1.0    0.0    221.119    221.119    221.435    221.92    224.925    224.925    226.496  
 2.0    15.0    63.0    48.0    56.0    58.0    1.0    -1.0    1.0    221.119    221.119    228.366    228.851    231.873    231.873    232.84  
 1.0    15.0    327.0    339.0    331.0    338.0    1.0    -1.0    1.0    236.548    236.548    236.782    237.115    240.288    240.288    241.708  
 2.0    15.0    327.0    339.0    331.0    338.0    -1.0    -1.0    0.0    236.548    236.548    242.86    243.193    246.366    246.366    247.301  
 1.0    15.0    72.0    57.0    68.0    53.0    -1.0    1.0    1.0    251.925    251.925    252.16    252.493    255.667    255.667    256.65  
 2.0    15.0    72.0    57.0    68.0    53.0    -1.0    1.0    1.0    251.925    251.925    257.369    257.853    260.875    260.875    262.446  
 1.0    15.0    305.0    280.0    301.0    272.0    -1.0    0.0    999.0    267.174    267.174    267.405    267.739    270.912    270.912    0.0  
 2.0    15.0    305.0    280.0    301.0    272.0    -1.0    0.0    999.0    267.174    267.174    273.315    273.801    276.821    276.821    0.0  
 1.0    15.0    298.0    286.0    300.0    290.0    1.0    1.0    0.0    282.379    282.379    282.85    283.336    286.356    286.356    287.759  
 2.0    15.0    298.0    286.0    300.0    290.0    1.0    -1.0    1.0    282.379    282.379    288.928    289.261    292.434    292.434    293.668  
 1.0    15.0    10.0    18.0    12.0    14.0    1.0    1.0    0.0    297.549    297.549    297.809    298.293    301.316    301.316    302.458  
 2.0    15.0    10.0    18.0    12.0    14.0    -1.0    -1.0    0.0    297.549    297.549    303.861    304.189    307.366    307.366    308.302  
 1.0    15.0    230.0    204.0    227.0    213.0    1.0    -1.0    1.0    312.92    312.92    313.161    313.629    316.667    316.667    318.538  
 2.0    15.0    230.0    204.0    227.0    213.0    -1.0    0.0    999.0    312.92    312.92    319.005    319.473    322.511    322.511    0.0  
 1.0    15.0    165.0    127.0    172.0    123.0    -1.0    -1.0    0.0    328.664    328.664    329.141    329.608    332.648    332.648    333.642  
 2.0    15.0    165.0    127.0    172.0    123.0    1.0    1.0    0.0    328.664    328.664    334.75    335.079    338.274    338.274    339.037  
 1.0    15.0    66.0    13.0    61.0    6.0    -1.0    -1.0    0.0    344.687    344.687    344.935    345.264    348.443    348.443    349.845  
 2.0    15.0    66.0    13.0    61.0    6.0    -1.0    -1.0    0.0    344.687    344.687    351.125    351.593    354.632    354.632    355.705  
 1.0    15.0    330.0    322.0    320.0    323.0    -1.0    -1.0    0.0    360.151    360.151    360.491    360.96    363.981    363.981    365.775  
 2.0    15.0    330.0    322.0    320.0    323.0    1.0    0.0    999.0    360.151    360.151    366.476    366.804    369.982    369.982    0.0  
