 first_second    radius    angle_t1    angle_t2    angle_p1    angle_p2    correct_direction    Response    C_I_M    start_trial    presentation_checkboard_time    presentation_target_time    start_delay    end_delay    presentation_probe_time    response_time  
 39.574    39.574    39.574    39.574    39.574    39.574    39.574    39.574    39.574    39.574    39.574    39.574    39.574    39.574    39.574    39.574  
 1.0    14.0    204.0    223.0    206.0    222.0    -1.0    0.0    999.0    41.65    41.65    41.88    42.211    45.382    45.382    0.0  
 2.0    14.0    204.0    223.0    206.0    222.0    1.0    -1.0    1.0    41.65    41.65    48.418    48.885    51.92    51.92    52.855  
 1.0    14.0    129.0    135.0    137.0    141.0    -1.0    1.0    1.0    56.761    56.761    57.241    57.722    60.744    60.744    61.661  
 2.0    14.0    129.0    135.0    137.0    141.0    -1.0    1.0    1.0    56.761    56.761    63.762    64.093    67.265    67.265    68.247  
 1.0    14.0    288.0    292.0    289.0    302.0    1.0    -1.0    1.0    72.391    72.391    72.853    73.183    76.355    76.355    77.756  
 2.0    14.0    288.0    292.0    289.0    302.0    1.0    -1.0    1.0    72.391    72.391    77.99    78.32    81.356    81.356    82.273  
 1.0    14.0    313.0    340.0    307.0    345.0    -1.0    1.0    1.0    88.34    88.34    88.797    89.281    92.3    92.3    93.467  
 2.0    14.0    313.0    340.0    307.0    345.0    1.0    1.0    0.0    88.34    88.34    95.102    95.433    98.605    98.605    100.006  
 1.0    14.0    199.0    234.0    208.0    229.0    -1.0    1.0    1.0    104.094    104.094    104.59    105.074    108.092    108.092    108.995  
 2.0    14.0    199.0    234.0    208.0    229.0    1.0    -1.0    1.0    104.094    104.094    111.097    111.428    114.599    114.599    115.3  
 1.0    14.0    334.0    280.0    344.0    289.0    1.0    -1.0    1.0    119.745    119.745    120.204    120.535    123.706    123.706    125.107  
 2.0    14.0    334.0    280.0    344.0    289.0    1.0    -1.0    1.0    119.745    119.745    126.041    126.372    129.544    129.544    130.478  
 1.0    14.0    349.0    325.0    348.0    331.0    -1.0    -1.0    0.0    135.16    135.16    135.397    135.879    138.9    138.9    140.816  
 2.0    14.0    349.0    325.0    348.0    331.0    1.0    -1.0    1.0    135.16    135.16    141.919    142.25    145.421    145.421    146.589  
 1.0    14.0    280.0    282.0    283.0    277.0    1.0    -1.0    1.0    150.761    150.761    150.992    151.323    154.495    154.495    155.476  
 2.0    14.0    280.0    282.0    283.0    277.0    -1.0    1.0    1.0    150.761    150.761    157.828    158.312    161.331    161.331    162.45  
 1.0    14.0    123.0    149.0    127.0    152.0    -1.0    1.0    1.0    166.073    166.073    166.304    166.635    169.806    169.806    170.74  
 2.0    14.0    123.0    149.0    127.0    152.0    -1.0    -1.0    0.0    166.073    166.073    171.457    171.939    174.96    174.96    176.111  
 1.0    14.0    140.0    138.0    134.0    148.0    1.0    -1.0    1.0    181.195    181.195    181.495    181.979    184.998    184.998    186.085  
 2.0    14.0    140.0    138.0    134.0    148.0    -1.0    1.0    1.0    181.195    181.195    188.42    188.751    191.922    191.922    192.857  
 1.0    14.0    71.0    30.0    73.0    33.0    1.0    -1.0    1.0    196.365    196.365    196.673    197.157    200.176    200.176    201.593  
 2.0    14.0    71.0    30.0    73.0    33.0    1.0    -1.0    1.0    196.365    196.365    203.364    203.695    206.73    206.73    208.034  
 1.0    14.0    250.0    241.0    244.0    240.0    1.0    -1.0    1.0    212.242    212.242    212.471    212.801    215.972    215.972    216.907  
 2.0    14.0    250.0    241.0    244.0    240.0    1.0    -1.0    1.0    212.242    212.242    218.308    218.639    221.81    221.81    222.744  
 1.0    14.0    159.0    159.0    161.0    166.0    -1.0    -1.0    0.0    228.161    228.161    228.462    228.93    231.949    231.949    232.818  
 2.0    14.0    159.0    159.0    161.0    166.0    -1.0    1.0    1.0    228.161    228.161    234.686    235.153    238.189    238.189    238.889  
 1.0    14.0    289.0    329.0    282.0    324.0    -1.0    1.0    1.0    244.024    244.024    244.494    244.826    247.86    247.86    248.931  
 2.0    14.0    289.0    329.0    282.0    324.0    -1.0    -1.0    0.0    244.024    244.024    251.265    251.597    254.768    254.768    255.702  
 1.0    14.0    329.0    345.0    320.0    342.0    -1.0    1.0    1.0    259.86    259.86    260.323    260.654    263.825    263.825    264.759  
 2.0    14.0    329.0    345.0    320.0    342.0    -1.0    1.0    1.0    259.86    259.86    266.393    266.724    269.895    269.895    270.829  
 1.0    14.0    120.0    155.0    111.0    146.0    1.0    -1.0    1.0    275.099    275.099    275.566    275.898    279.071    279.071    280.003  
 2.0    14.0    120.0    155.0    111.0    146.0    1.0    -1.0    1.0    275.099    275.099    282.34    282.822    285.841    285.841    286.775  
 1.0    14.0    300.0    322.0    296.0    320.0    -1.0    1.0    1.0    290.272    290.272    290.728    291.06    294.23    294.23    295.982  
 2.0    14.0    300.0    322.0    296.0    320.0    -1.0    -1.0    0.0    290.272    290.272    296.581    297.066    300.084    300.084    301.253  
 1.0    14.0    231.0    220.0    225.0    212.0    1.0    -1.0    1.0    305.95    305.95    306.188    306.52    309.692    309.692    310.626  
 2.0    14.0    231.0    220.0    225.0    212.0    1.0    -1.0    1.0    305.95    305.95    312.261    312.593    315.763    315.763    316.465  
 1.0    14.0    255.0    257.0    256.0    260.0    -1.0    -1.0    0.0    321.139    321.139    321.607    321.931    325.11    325.11    326.077  
 2.0    14.0    255.0    257.0    256.0    260.0    -1.0    -1.0    0.0    321.139    321.139    327.233    327.568    330.754    330.754    332.414  
 1.0    14.0    215.0    208.0    206.0    213.0    1.0    0.0    999.0    336.943    336.943    337.419    337.894    340.921    340.921    0.0  
 2.0    14.0    215.0    208.0    206.0    213.0    -1.0    0.0    999.0    336.943    336.943    343.079    343.563    346.582    346.582    0.0  
